USUBJID,SUBJID,SEX,ARMCD,ARM,AGE,RFSTDTC,RFENDTC
S001,1,M,B,DRUGA,45,2025-01-12,2025-06-24
S002,2,M,B,PLACEBO,26,2025-01-15,2025-06-27
S003,3,F,B,DRUGA,63,2025-01-14,2025-06-04
S004,4,F,A,DRUGA,41,2025-01-05,2025-06-26
S005,5,F,B,PLACEBO,65,2025-01-15,2025-06-12
S006,6,M,A,PLACEBO,51,2025-01-24,2025-06-02
S007,7,F,B,PLACEBO,55,2025-01-05,2025-06-21
S008,8,F,A,PLACEBO,73,2025-01-13,2025-06-25
S009,9,F,B,DRUGA,32,2025-01-10,2025-06-13
S010,10,M,A,DRUGA,30,2025-01-21,2025-06-19
