domain,sdtm_variable,raw_variable,derivation_rule,origin
DM,USUBJID,USUBJID,DIRECT MAPPING,CRF
DM,STUDYID,STUDYID,DIRECT MAPPING,CRF
DM,SUBJID,SUBJID,DIRECT MAPPING,CRF
DM,ARMCD,ARMCD,DIRECT MAPPING,CRF
DM,RFSTDTC,RFSTDTC,DIRECT MAPPING,CRF
DM,RFENDTC,RFENDTC,DIRECT MAPPING,CRF
AE,USUBJID,USUBJID,DIRECT MAPPING,CRF
AE,AETERM,AETERM,DIRECT MAPPING,CRF
AE,AESTDTC,AESTDTC,DIRECT MAPPING,CRF
AE,AEENDTC,AEENDTC,DIRECT MAPPING,CRF
AE,AESEV,AESEV,DIRECT MAPPING,CRF
